Participant,Food Rated,Food Rating,Trial Food C,Trial Food D,Decision,Opponent Decision,RT,
MOOOO,Toast,1,NA,NA,NA,NA,4214.58978479,
MOOOO,Tomato Soup,5,NA,NA,NA,NA,2227.39593597,
MOOOO,apple,6,NA,NA,NA,NA,2766.55484133,
MOOOO,fried chicken,1,NA,NA,NA,NA,1847.17465084,
MOOOO,cheeseburger,1,NA,NA,NA,NA,1395.79130108,
MOOOO,carrots,8,NA,NA,NA,NA,1908.72257151,
MOOOO,bacon,1,NA,NA,NA,NA,1008.20264236,
MOOOO,boiled spinach,4,NA,NA,NA,NA,3052.52467195,
MOOOO,brussel sprouts,5,NA,NA,NA,NA,2701.40241089,
MOOOO,Green Beans,5,NA,NA,NA,NA,926.004668512,
MOOOO,Jell-O,1,NA,NA,NA,NA,1758.71729304,
MOOOO,chicken nuggets,1,NA,NA,NA,NA,883.445549665,
MOOOO,Garlic Bread,9,NA,NA,NA,NA,2032.31840113,
MOOOO,Steak,1,NA,NA,NA,NA,1609.42020911,
MOOOO,baked potato,6,NA,NA,NA,NA,2259.36781542,
MOOOO,Turkey Sub,1,NA,NA,NA,NA,1558.40576565,
MOOOO,Tater-Tots,9,NA,NA,NA,NA,1761.31938254,
MOOOO,Oysters,1,NA,NA,NA,NA,1091.36980169,
MOOOO,glazed donut,9,NA,NA,NA,NA,1187.54789721,
MOOOO,avocado,9,NA,NA,NA,NA,1248.61928948,
MOOOO,Peas,9,NA,NA,NA,NA,1245.17704374,
MOOOO,Grilled Chicken Sandwich,1,NA,NA,NA,NA,1494.90969909,
MOOOO,bagel,7,NA,NA,NA,NA,1891.2835867,
MOOOO,Sausage and Biscuit Sandwich,1,NA,NA,NA,NA,2726.56213344,
MOOOO,Taco,1,NA,NA,NA,NA,788.474170694,
MOOOO,Pizza,7,NA,NA,NA,NA,1361.77939129,
MOOOO,Ham,1,NA,NA,NA,NA,746.778179202,
MOOOO,Onion Rings,8,NA,NA,NA,NA,1253.0370744,
MOOOO,Pop Tart,1,NA,NA,NA,NA,768.601714134,
MOOOO,chicken wings,1,NA,NA,NA,NA,1312.29814745,
MOOOO,Oatmeal,2,NA,NA,NA,NA,2204.85345407,
MOOOO,Ruben Sandwich,1,NA,NA,NA,NA,1412.64672188,
MOOOO,Rigattoni with Marinara Sauce,9,NA,NA,NA,NA,3219.46112701,
MOOOO,Popcorn,9,NA,NA,NA,NA,2018.69946355,
MOOOO,Veggie Sandwich,9,NA,NA,NA,NA,1417.22530459,
MOOOO,Liver and Onions,1,NA,NA,NA,NA,1183.32707737,
MOOOO,fried egg,9,NA,NA,NA,NA,1444.82827382,
MOOOO,broccoli,9,NA,NA,NA,NA,1057.03238634,
MOOOO,Waffles,5,NA,NA,NA,NA,1882.95240385,
MOOOO,asparagus,9,NA,NA,NA,NA,1064.97110527,
MOOOO,croissant,3,NA,NA,NA,NA,1248.573836,
MOOOO,Sushi,8,NA,NA,NA,NA,1187.02738157,
MOOOO,Potato Chips,9,NA,NA,NA,NA,1630.26478362,
MOOOO,french fries,9,NA,NA,NA,NA,1587.06491734,
MOOOO,french toast,9,NA,NA,NA,NA,1205.13546114,
MOOOO,chocolate chip cookie,5,NA,NA,NA,NA,3686.90959352,
MOOOO,Hot Dog,1,NA,NA,NA,NA,1340.48321447,
MOOOO,Mashed Potatoes,6,NA,NA,NA,NA,2225.1169083,
MOOOO,Saltine Crackers,1,NA,NA,NA,NA,1429.11358873,
MOOOO,Raspberry Shake,9,NA,NA,NA,NA,1472.94589374,
MOOOO,Vegetable Salad,9,NA,NA,NA,NA,1303.01586278,
MOOOO,NA,NA,Saltine Crackers,fried chicken,C,c,2.06202396032,
MOOOO,NA,NA,Toast,Vegetable Salad,D,d,2.24237163548,
MOOOO,NA,NA,Oatmeal,Raspberry Shake,D,c,2.07570887881,
MOOOO,NA,NA,croissant,french toast,D,d,2.0928150268,
MOOOO,NA,NA,boiled spinach,french fries,D,d,2.29124634421,
MOOOO,NA,NA,Pop Tart,chocolate chip cookie,D,c,2.05664774239,
MOOOO,NA,NA,Ham,Waffles,D,d,2.04247407686,
MOOOO,NA,NA,Taco,broccoli,D,d,2.07717512001,
MOOOO,NA,NA,Sausage and Biscuit Sandwich,fried egg,D,d,2.42760678145,
MOOOO,NA,NA,Tomato Soup,Veggie Sandwich,D,d,2.0146154929,
MOOOO,NA,NA,Mashed Potatoes,Popcorn,C,d,1538.2385946,
MOOOO,NA,NA,baked potato,Rigattoni with Marinara Sauce,D,d,185.988794007,
MOOOO,Toast,1,NA,NA,NA,NA,2507.71585026,
MOOOO,Tomato Soup,1,NA,NA,NA,NA,960.349415067,
MOOOO,apple,3,NA,NA,NA,NA,2066.02728773,
MOOOO,fried chicken,1,NA,NA,NA,NA,1210.54686889,
MOOOO,cheeseburger,1,NA,NA,NA,NA,2336.82494252,
MOOOO,carrots,8,NA,NA,NA,NA,1423.37716417,
MOOOO,bacon,1,NA,NA,NA,NA,923.629846416,
MOOOO,boiled spinach,5,NA,NA,NA,NA,1392.450226,
MOOOO,brussel sprouts,4,NA,NA,NA,NA,1444.33610551,
MOOOO,Green Beans,3,NA,NA,NA,NA,1390.28116642,
MOOOO,Jell-O,1,NA,NA,NA,NA,954.695588764,
MOOOO,chicken nuggets,1,NA,NA,NA,NA,1229.64172884,
MOOOO,Garlic Bread,9,NA,NA,NA,NA,1355.74825224,
MOOOO,Steak,1,NA,NA,NA,NA,656.61069535,
MOOOO,baked potato,5,NA,NA,NA,NA,1796.96761757,
MOOOO,Turkey Sub,1,NA,NA,NA,NA,1273.67979637,
MOOOO,Tater-Tots,9,NA,NA,NA,NA,1294.66708503,
MOOOO,Oysters,1,NA,NA,NA,NA,769.839710505,
MOOOO,glazed donut,9,NA,NA,NA,NA,778.623473154,
MOOOO,avocado,9,NA,NA,NA,NA,832.280572108,
MOOOO,Peas,6,NA,NA,NA,NA,2463.0619614,
MOOOO,Grilled Chicken Sandwich,1,NA,NA,NA,NA,1774.72424889,
MOOOO,bagel,8,NA,NA,NA,NA,1413.22002221,
MOOOO,Sausage and Biscuit Sandwich,1,NA,NA,NA,NA,780.438679835,
MOOOO,Taco,1,NA,NA,NA,NA,2116.4689196,
MOOOO,Pizza,9,NA,NA,NA,NA,1385.08578489,
MOOOO,Ham,1,NA,NA,NA,NA,814.39096248,
MOOOO,Onion Rings,9,NA,NA,NA,NA,1089.41676833,
MOOOO,Pop Tart,1,NA,NA,NA,NA,1084.65930418,
MOOOO,chicken wings,1,NA,NA,NA,NA,6406.67032249,
MOOOO,Oatmeal,2,NA,NA,NA,NA,1430.89507187,
MOOOO,Ruben Sandwich,3,NA,NA,NA,NA,942.637220632,
MOOOO,Rigattoni with Marinara Sauce,9,NA,NA,NA,NA,2504.29168817,
MOOOO,Popcorn,8,NA,NA,NA,NA,2095.0578872,
MOOOO,Veggie Sandwich,7,NA,NA,NA,NA,1256.9553598,
MOOOO,Liver and Onions,1,NA,NA,NA,NA,774.92952267,
MOOOO,fried egg,9,NA,NA,NA,NA,1156.55106821,
MOOOO,broccoli,9,NA,NA,NA,NA,1205.72880011,
MOOOO,Waffles,9,NA,NA,NA,NA,914.72145326,
MOOOO,asparagus,9,NA,NA,NA,NA,1198.33161294,
MOOOO,croissant,1,NA,NA,NA,NA,1449.29493345,
MOOOO,Sushi,3,NA,NA,NA,NA,1245.62180359,
MOOOO,Potato Chips,9,NA,NA,NA,NA,1857.73891913,
MOOOO,french fries,9,NA,NA,NA,NA,659.36576268,
MOOOO,french toast,9,NA,NA,NA,NA,1373.79914841,
MOOOO,chocolate chip cookie,6,NA,NA,NA,NA,1716.81114031,
MOOOO,Hot Dog,1,NA,NA,NA,NA,1030.04670467,
MOOOO,Mashed Potatoes,7,NA,NA,NA,NA,2472.87013794,
MOOOO,Saltine Crackers,1,NA,NA,NA,NA,979.250242419,
MOOOO,Raspberry Shake,9,NA,NA,NA,NA,1557.35886939,
MOOOO,Vegetable Salad,9,NA,NA,NA,NA,1014.34961448,
